Folder: Analytical_Insights_with_Python-AIP-

File: RED MUD SA_XRD.txt
Index	X	Acquisition
0	-6.31123	0
14	-5.88678	5
28	-5.46233	2
42	-5.03788	2
56	-4.61343	4
70	-4.18898	0
84	-3.76453	0
98	-3.34008	5
112	-2.91563	4
126	-2.49118	5
140	-2.06673	3
154	-1.64228	3
168	-1.21782	2
182	-0.793373	6
196	-0.368922	8
210	0.0555284	8
224	0.479979	0
238	0.904431	4
252	1.32888	20
266	1.75333	207
280	2.17779	205
294	2.60224	237
308	3.0267	217
322	3.45116	232
336	3.87562	271
350	4.30008	296
364	4.72455	264
378	5.14901	260
392	5.57348	261
406	5.99796	260
420	6.42244	280
434	6.84692	273
448	7.2714	283
462	7.69589	259
476	8.12039	287
490	8.54489	286
504	8.96939	317
518	9.3939	313
532	9.81841	343
546	10.2429	373
560	10.6675	366
574	11.092	402
588	11.5165	391
602	11.9411	417
616	12.3656	435
630	12.7902	469
644	13.2148	464
658	13.6393	536
672	14.0639	537
686	14.4885	599
700	14.9131	567
714	15.3377	605
728	15.7623	606
742	16.187	571
756	16.6116	609
770	17.0363	655
784	17.4609	633
798	17.8856	691
812	18.3103	630
826	18.7349	702
840	19.1596	694
854	19.5844	664
868	20.0091	711
882	20.4338	731
896	20.8586	739
910	21.2833	825
924	21.7081	806
938	22.1329	703
952	22.5577	731
966	22.9825	811
980	23.4073	754
994	23.8321	854
1008	24.257	910
1022	24.6819	848
1036	25.1067	844
1050	25.5316	819
1064	25.9565	853
1078	26.3815	880
1092	26.8064	875
1106	27.2314	883
1120	27.6563	925
1134	28.0813	897
1148	28.5063	838
1162	28.9314	925
1176	29.3564	923
1190	29.7814	931
1204	30.2065	919
1218	30.6316	932
1232	31.0567	963
1246	31.4818	1008
1260	31.9069	994
1274	32.3321	1017
1288	32.7572	1096
1302	33.1824	1247
1316	33.6076	1102
1330	34.0328	1061
1344	34.458	1091
1358	34.8832	1101
1372	35.3084	1164
1386	35.7337	1280
1400	36.1589	1152
1414	36.5842	1149
1428	37.0095	1207
1442	37.4348	1131
1456	37.86	1155
1470	38.2853	1150
1484	38.7107	1204
1498	39.136	1245
1512	39.5613	1243
1526	39.9866	1258
1540	40.412	1221
1554	40.8373	1330
1568	41.2627	1272
1582	41.688	1217
1596	42.1134	1279
1610	42.5388	1255
1624	42.9641	1237
1638	43.3895	1264
1652	43.8149	1305
1666	44.2403	1323
1680	44.6657	1317
1694	45.0911	1390
1708	45.5165	1313
1722	45.9419	1351
1736	46.3673	1427
1750	46.7927	1366
1764	47.2181	1410
1778	47.6435	1425
1792	48.0689	1392
1806	48.4943	1370
1820	48.9197	1426
1834	49.3452	1428
1848	49.7707	1453
1862	50.1962	1445
1876	50.6217	1451
1890	51.0473	1484
1904	51.4729	1431
1918	51.8986	1486
1932	52.3243	1458
1946	52.75	1471
1960	53.1759	1419
1974	53.6017	1658
1988	54.0277	1680
2002	54.4537	1597
2016	54.8798	1554
2030	55.306	1556
2044	55.7323	1567
2058	56.1587	1608
2072	56.5851	1588
2086	57.0117	1534
2100	57.4383	1600
2114	57.865	1597
2128	58.2918	1641
2142	58.7187	1604
2156	59.1456	1626
2170	59.5726	1630
2184	59.9996	1631
2198	60.4267	1629
2212	60.8538	1576
2226	61.281	1538
2240	61.7081	1576
2254	62.1354	1641
2268	62.5626	1697
2282	62.9898	1632
2296	63.4171	1690
2310	63.8444	1756
2324	64.2716	1805
2338	64.6989	1773
2352	65.1262	1636
2366	65.5534	1682
2380	65.9806	1673
2394	66.4078	1701
2408	66.8349	1715
2422	67.2621	1764
2436	67.6891	1736
2450	68.1162	1752
2464	68.5431	1804
2478	68.9701	1742
2492	69.3969	1822
2506	69.8237	1737
2520	70.2505	1829
2534	70.6772	1751
2548	71.1039	1725
2562	71.5307	1793
2576	71.9574	1793
2590	72.3842	1762
2604	72.811	1784
2618	73.2379	1712
2632	73.6649	1745
2646	74.092	1679
2660	74.5192	1787
2674	74.9465	1784
2688	75.374	1783
2702	75.8016	1743
2716	76.2294	1764
2730	76.6574	1843
2744	77.0855	1708
2758	77.5139	1820
2772	77.9424	1885
2786	78.3711	1881
2800	78.7999	1803
2814	79.2289	1859
2828	79.6581	1911
2842	80.0874	1902
2856	80.5168	1873
2870	80.9464	1842
2884	81.376	1820
2898	81.8058	1763
2912	82.2357	1956
2926	82.6656	1889
2940	83.0957	1927
2954	83.5258	1967
2968	83.956	1898
2982	84.3863	1975
2996	84.8167	1945
3010	85.2471	1926
3024	85.6775	1894
3038	86.108	1954
3052	86.5385	1885
3066	86.969	1990
3080	87.3996	1890
3094	87.8301	2013
3108	88.2607	1882
3122	88.6912	2056
3136	89.1218	1960
3150	89.5524	1956
3164	89.983	1871
3178	90.4136	1947
3192	90.8443	1972
3206	91.275	1864
3220	91.7057	1936
3234	92.1365	1957
3248	92.5674	1973
3262	92.9983	1972
3276	93.4292	1974
3290	93.8603	1961
3304	94.2914	1977
3318	94.7226	1944
3332	95.1539	1933
3346	95.5853	1954
3360	96.0168	2029
3374	96.4483	1938
3388	96.88	1961
3402	97.3116	1927
3416	97.7434	1938
3430	98.1752	2008
3444	98.607	2007
3458	99.0389	2022
3472	99.4708	1988
3486	99.9027	2004
3500	100.335	2083
3514	100.767	1988
3528	101.198	1975
3542	101.63	2086
3556	102.062	2046
3570	102.494	1984
3584	102.926	2137
3598	103.358	1995
3612	103.79	2040
3626	104.221	2023
3640	104.653	1983
3654	105.085	2067
3668	105.516	2007
3682	105.948	2020
3696	106.379	2021
3710	106.81	2003
3724	107.242	2059
3738	107.673	2020
3752	108.104	2244
3766	108.535	2084
3780	108.966	2054
3794	109.397	2096
3808	109.827	2162
3822	110.258	2201
3836	110.689	2186
3850	111.119	2295
3864	111.55	2158
3878	111.98	2280
3892	112.411	2148
3906	112.841	2085
3920	113.272	2187
3934	113.702	2171
3948	114.133	2130
3962	114.564	2202
3976	114.995	2503
3990	115.427	1414
4004	115.858	25
4018	116.289	19
4032	116.721	5
4046	117.152	4
4060	117.583	2
4074	118.014	0
4088	118.446	0
4095	118.661	0

File: RED MUD SB_XRD.txt
Index	X	Acquisition
0	-6.31123	0
14	-5.88678	2
28	-5.46233	5
42	-5.03788	3
56	-4.61343	1
70	-4.18898	2
84	-3.76453	5
98	-3.34008	4
112	-2.91563	2
126	-2.49118	3
140	-2.06673	4
154	-1.64228	5
168	-1.21782	2
182	-0.793373	3
196	-0.368922	4
210	0.0555284	11
224	0.479979	7
238	0.904431	8
252	1.32888	16
266	1.75333	234
280	2.17779	201
294	2.60224	182
308	3.0267	233
322	3.45116	237
336	3.87562	276
350	4.30008	284
364	4.72455	248
378	5.14901	306
392	5.57348	275
406	5.99796	272
420	6.42244	279
434	6.84692	279
448	7.2714	321
462	7.69589	343
476	8.12039	344
490	8.54489	355
504	8.96939	363
518	9.3939	399
532	9.81841	412
546	10.2429	386
560	10.6675	406
574	11.092	443
588	11.5165	440
602	11.9411	467
616	12.3656	434
630	12.7902	422
644	13.2148	464
658	13.6393	500
672	14.0639	468
686	14.4885	493
700	14.9131	500
714	15.3377	521
728	15.7623	494
742	16.187	523
756	16.6116	500
770	17.0363	517
784	17.4609	583
798	17.8856	565
812	18.3103	621
826	18.7349	626
840	19.1596	638
854	19.5844	657
868	20.0091	642
882	20.4338	659
896	20.8586	666
910	21.2833	702
924	21.7081	742
938	22.1329	698
952	22.5577	698
966	22.9825	708
980	23.4073	745
994	23.8321	804
1008	24.257	834
1022	24.6819	758
1036	25.1067	819
1050	25.5316	852
1064	25.9565	796
1078	26.3815	925
1092	26.8064	832
1106	27.2314	873
1120	27.6563	870
1134	28.0813	869
1148	28.5063	903
1162	28.9314	871
1176	29.3564	930
1190	29.7814	943
1204	30.2065	928
1218	30.6316	953
1232	31.0567	1013
1246	31.4818	1010
1260	31.9069	1040
1274	32.3321	1022
1288	32.7572	1103
1302	33.1824	1190
1316	33.6076	1084
1330	34.0328	1091
1344	34.458	1130
1358	34.8832	1114
1372	35.3084	1166
1386	35.7337	1300
1400	36.1589	1154
1414	36.5842	1127
1428	37.0095	1131
1442	37.4348	1170
1456	37.86	1156
1470	38.2853	1309
1484	38.7107	1212
1498	39.136	1257
1512	39.5613	1243
1526	39.9866	1204
1540	40.412	1245
1554	40.8373	1319
1568	41.2627	1210
1582	41.688	1296
1596	42.1134	1264
1610	42.5388	1209
1624	42.9641	1291
1638	43.3895	1212
1652	43.8149	1247
1666	44.2403	1319
1680	44.6657	1262
1694	45.0911	1327
1708	45.5165	1326
1722	45.9419	1365
1736	46.3673	1352
1750	46.7927	1460
1764	47.2181	1369
1778	47.6435	1373
1792	48.0689	1350
1806	48.4943	1360
1820	48.9197	1401
1834	49.3452	1467
1848	49.7707	1452
1862	50.1962	1421
1876	50.6217	1434
1890	51.0473	1426
1904	51.4729	1430
1918	51.8986	1410
1932	52.3243	1501
1946	52.75	1436
1960	53.1759	1494
1974	53.6017	1531
1988	54.0277	1559
2002	54.4537	1510
2016	54.8798	1442
2030	55.306	1527
2044	55.7323	1457
2058	56.1587	1479
2072	56.5851	1465
2086	57.0117	1525
2100	57.4383	1537
2114	57.865	1533
2128	58.2918	1573
2142	58.7187	1590
2156	59.1456	1525
2170	59.5726	1575
2184	59.9996	1506
2198	60.4267	1545
2212	60.8538	1509
2226	61.281	1524
2240	61.7081	1599
2254	62.1354	1528
2268	62.5626	1726
2282	62.9898	1526
2296	63.4171	1609
2310	63.8444	1603
2324	64.2716	1681
2338	64.6989	1652
2352	65.1262	1577
2366	65.5534	1571
2380	65.9806	1575
2394	66.4078	1643
2408	66.8349	1566
2422	67.2621	1610
2436	67.6891	1685
2450	68.1162	1639
2464	68.5431	1637
2478	68.9701	1628
2492	69.3969	1643
2506	69.8237	1634
2520	70.2505	1674
2534	70.6772	1642
2548	71.1039	1692
2562	71.5307	1725
2576	71.9574	1668
2590	72.3842	1687
2604	72.811	1618
2618	73.2379	1666
2632	73.6649	1718
2646	74.092	1605
2660	74.5192	1624
2674	74.9465	1665
2688	75.374	1696
2702	75.8016	1679
2716	76.2294	1660
2730	76.6574	1635
2744	77.0855	1779
2758	77.5139	1876
2772	77.9424	2064
2786	78.3711	1718
2800	78.7999	1771
2814	79.2289	1771
2828	79.6581	1710
2842	80.0874	1778
2856	80.5168	1706
2870	80.9464	1802
2884	81.376	1724
2898	81.8058	1709
2912	82.2357	1792
2926	82.6656	1853
2940	83.0957	1817
2954	83.5258	1787
2968	83.956	1773
2982	84.3863	1826
2996	84.8167	1707
3010	85.2471	1752
3024	85.6775	1680
3038	86.108	1717
3052	86.5385	1799
3066	86.969	1768
3080	87.3996	1769
3094	87.8301	1785
3108	88.2607	1735
3122	88.6912	1787
3136	89.1218	1717
3150	89.5524	1723
3164	89.983	1772
3178	90.4136	1805
3192	90.8443	1758
3206	91.275	1728
3220	91.7057	1790
3234	92.1365	1804
3248	92.5674	1713
3262	92.9983	1819
3276	93.4292	1803
3290	93.8603	1756
3304	94.2914	1718
3318	94.7226	1803
3332	95.1539	1845
3346	95.5853	1782
3360	96.0168	1769
3374	96.4483	1719
3388	96.88	1799
3402	97.3116	1795
3416	97.7434	1831
3430	98.1752	1710
3444	98.607	1758
3458	99.0389	1926
3472	99.4708	1780
3486	99.9027	1776
3500	100.335	1865
3514	100.767	1842
3528	101.198	1834
3542	101.63	1780
3556	102.062	1763
3570	102.494	1810
3584	102.926	1891
3598	103.358	1816
3612	103.79	1796
3626	104.221	1817
3640	104.653	1864
3654	105.085	1780
3668	105.516	1880
3682	105.948	1910
3696	106.379	1908
3710	106.81	1917
3724	107.242	1866
3738	107.673	1958
3752	108.104	1959
3766	108.535	1895
3780	108.966	1904
3794	109.397	1873
3808	109.827	1886
3822	110.258	1888
3836	110.689	1959
3850	111.119	1943
3864	111.55	2073
3878	111.98	2080
3892	112.411	1920
3906	112.841	1991
3920	113.272	1878
3934	113.702	1942
3948	114.133	1981
3962	114.564	1920
3976	114.995	2223
3990	115.427	1327
4004	115.858	20
4018	116.289	5
4032	116.721	12
4046	117.152	5
4060	117.583	2
4074	118.014	0
4088	118.446	0
4095	118.661	0

File: XRD_Sample_Data.txt
5.000000	72059.2
5.260000	71102.5
5.520000	70431.7
5.780000	68985
6.040000	69720
6.300000	69749.2
6.560000	68780.8
6.820000	68891.7
7.080000	68938.3
7.340000	68220.8
7.600000	67165
7.860000	66412.5
8.120000	65485
8.380000	64942.5
8.640000	65531.7
8.900000	66126.7
9.160000	65047.5
9.420000	64102.5
9.680000	65840.8
9.940000	65980.8
10.2	65076.7
10.46	65257.5
10.72	65047.5
10.98	64960
11.24	65228.3
11.5	65543.3
11.76	65520
12.02	66091.7
12.28	65648.3
12.54	67205.8
12.8	66482.5
13.06	67561.7
13.32	67415.8
13.58	67340
13.84	69690.8
14.1	68232.5
14.36	68407.5
14.62	68961.7
14.88	68926.7
15.14	70175
15.4	69031.7
15.66	69965
15.92	70134.2
16.18	70250.8
16.44	71668.3
16.7	71604.2
16.96	73325
17.22	72485
17.48	74637.5
17.74	73675
18	75133.3
18.26	75005
18.52	75296.7
18.78	75220.8
19.04	75751.7
19.3	77746.7
19.56	76370
19.82	78359.2
20.08	79625
20.34	80949.2
20.6	80185
20.86	82372.5
21.12	84746.7
21.38	90072.5
21.64	84285.8
21.9	85061.7
22.16	84630
22.42	85020.8
22.68	85090.8
22.94	85149.2
23.2	86916.7
23.46	85551.7
23.72	87260.8
23.98	91390.8
24.24	100899
24.5	91215.8
24.76	88859.2
25.02	89775
25.28	92277.5
25.54	89845
25.8	89285
26.06	89699.2
26.32	90900.8
26.58	93811.7
26.84	91595
27.1	91851.7
27.36	93024.2
27.62	90749.2
27.88	93164.2
28.14	94377.5
28.4	92995
28.66	93105.8
28.92	94418.3
29.18	93899.2
29.44	95421.7
29.7	94750.8
29.96	94243.3
30.22	95975.8
30.48	95235
30.74	95736.7
31	97119.2
31.26	97830.8
31.52	99312.5
31.78	98134.2
32.04	99429.2
32.3	100829
32.56	100888
32.82	106458
33.08	127616
33.34	118458
33.6	108290
33.86	102521
34.12	101465
34.38	102947
34.64	106132
34.9	102988
35.16	103752
35.42	111399
35.68	138740
35.94	107759
36.2	104318
36.46	103880
36.72	107007
36.98	109218
37.24	105292
37.5	102212
37.76	103244
38.02	100911
38.28	102363
38.54	102533
38.8	102439
39.06	101932
39.32	101278
39.58	101068
39.84	101961
40.1	102247
40.36	104148
40.62	104347
40.88	111452
41.14	105490
41.4	103443
41.66	103437
41.92	103122
42.18	101238
42.44	102743
42.7	104679
42.96	101588
43.22	101990
43.48	101792
43.74	102422
44	103419
44.26	102066
44.52	101477
44.78	102194
45.04	102393
45.3	101943
45.56	102468
45.82	102101
46.08	101844
46.34	102130
46.6	103320
46.86	101669
47.12	102568
47.38	102334
47.64	101500
47.9	103583
48.16	102013
48.42	103927
48.68	102906
48.94	103816
49.2	105233
49.46	113633
49.72	107911
49.98	104726
50.24	102982
50.5	102976
50.76	102883
51.02	103933
51.28	103734
51.54	102655
51.8	102183
52.06	105070
52.32	103559
52.58	102544
52.84	103472
53.1	103606
53.36	105846
53.62	106482
53.88	114176
54.14	118633
54.4	109095
54.66	105385
54.92	103501
55.18	102422
55.44	103163
55.7	103104
55.96	102550
56.22	103093
56.48	103058
56.74	102410
57	102678
57.26	102673
57.52	106324
57.78	105834
58.04	104341
58.3	103233
58.56	102352
58.82	101278
59.08	103227
59.34	102708
59.6	103472
59.86	102433
60.12	103180
60.38	103145
60.64	103501
60.9	103758
61.16	103600
61.42	104446
61.68	104930
61.94	105356
62.2	107427
62.46	111376
62.72	109153
62.98	104504
63.24	104096
63.5	104388
63.76	104650
64.02	112257
64.28	113604
64.54	105963
64.8	104335
65.06	103262
65.32	102328
65.58	102177
65.84	102573
66.1	102579
66.36	102655
66.62	102305
66.88	102813
67.14	103361
67.4	103483
67.66	103326
67.92	103034
68.18	102713
68.44	103559
68.7	102498
68.96	102002
69.22	103851
69.48	105099
69.74	105543
70	104516
70.26	103314
70.52	103338
70.78	104073
71.04	102766
71.3	103647
71.56	105245
71.82	105105
72.08	105607
72.34	104341
72.6	103483
72.86	104726
73.12	102317
73.38	103670
73.64	102521
73.9	102859
74.16	103093
74.42	103536
74.68	102293
74.94	103110
75.2	103489
75.46	104428
75.72	104417
75.98	103571
76.24	102661
76.5	102556
76.76	102393
77.02	102865
77.28	103122
77.54	103285
77.8	102725
78.06	103501
78.32	103402
78.58	102725
78.84	103297
79.1	102288
79.36	103892
79.62	101955
79.88	102159
80	102918